#		The Solar Constant and Its Spectral Distribution
#
#                                     Table 3.3.2
#
#  Extraterrestrial Solar Spectral Irradiance at Mean Sun-Earth Distance ( WRC spectrum)a,b
#
# lambda (microns)  I sub(O.n.lambda) (W m^-2 um^-1)
#
250 64.56
255 91.25
260 122.50
265 253.75
270 275.00
275 212.50
280 162.50
285 286.25
290 535.00
295 560.00
300 527.50
305 557.50
310 602.51
315 705.00
320 747.50
325 782.50
330 997.50
335 906.25
340 960.00
345 877.50
350 955.00
350 955.00
355 1044.99
360 940.00
365 1125.01
370 1165.00
375 1081.25
380 1210.00
385 931.25
390 1200.00
395 1033.74
400 1702.49
405 1643.75
410 1710.00
415 1747.50
420 1747.50
425 1692.51
430 1492.50
435 1761.25
440 1755.02
445 1922.49
450 2099.99
455 2017.51
460 2032.49
465 2000.00
470 1979.99
475 2016.25
480 2055.00
485 1901.26
490 1920.00
495 1965.00
500 1862.52
505 1943.75
510 1952.50
515 1835.01
520 1802.49
525 1894.99
530 1947.49
535 1926.24
540 1857.50
545 1895.01
550 1902.50
555 1885.00
560 1840.02
565 1850.00
570 1817.50
575 1848.76
580 1840.00
585 1817.50
590 1742.49
595 1785.00
600 1720.00
605 1751.25
610 1715.00
620 1715.00
630 1637.50
640 1622.50
650 1597.50
660 1555.00
670 1505.00
680 1472.50
690 1415.02
700 1427.50
710 1402.50
720 1355.00
730 1355.00
740 1300.00
750 1272.52
760 1222.50
770 1187.50
780 1195.00
790 1142.50
800 1144.70
810 1113.00
820 1070.00
830 1041.00
840 1019.99
850 994.00
860 1002.00
870 972.00
880 966.00
890 945.00
900 913.00
910 876.00
920 841.00
930 830.00
940 801.00
950 778.00
960 771.00
970 764.00
980 769.00
990 762.00
1000 743.99
1050 665.98
1100 606.04
1150 551.04
1200 497.99
1250 469.99
1300 436.99
1350 389.03
1400 354.03
1450 318.99
1500 296.99
1550 273.99
1600 247.02
1650 234.02
1700 215.00
1750 187.00
1800 170.00
1850 149.01
1900 136.01
1950 126.00
2000 118.50
2100 93.00
2200 74.75
2300 63.25
2400 56.50
2500 48.25
2600 42.00
2700 36.50
2800 32.00
2900 28.00
3000 24.75
3100 21.75
3200 19.75
3300 17.25
3400 15.75
3500 14.00
3600 12.75
3700 11.50
3800 10.50
3900 9.50
4000 8.50
4100 7.75
4200 7.00
4300 6.50
4400 6.00
4500 5.50
4600 5.00
4700 4.50
4800 4.00
4900 3.75
5000 3.47
6000 1.75
7000 0.95
8000 0.55
9000 0.35
10000 0.20
25000 0.12
