# Sky Radiance Data from Lewis' Zibbordi & Voss model :
# Columns: 1. Lambda (nm), 2. Direct, 3. Diffuse (total), 4. Diffuse (cosine), 5. Ratio Direct to Diffuse, 6. Percent diffuse(1), 7. Total Optical Depth, 8. downward Direct path Transmittance, 9. upward path Transmittance (vertical), 10. Percent diffuse(2) on a horizontal plane, 11. Hemispherical integral cf. 2 Pi.
300.00	0.74	4.759110	0.000000	0.155905	86.512281	4.652139	0.001404	0.009541	0.000000	1.273240
304.00	5.01	29.548116	0.000000	0.169463	85.509323	3.331350	0.009062	0.035745	0.000000	1.273240
308.00	15.48	84.378090	0.000000	0.183439	84.499515	2.573229	0.026431	0.076289	0.000000	1.273240
312.00	33.46	169.221674	0.000000	0.197708	83.492784	2.095407	0.051894	0.123020	0.000000	1.273240
316.00	59.60	280.900797	0.000000	0.212186	82.495591	1.759544	0.083380	0.172123	0.000000	1.273240
320.00	81.45	359.055279	0.000000	0.226847	81.509782	1.571338	0.108760	0.207767	0.000000	1.273240
324.00	104.97	434.475088	0.000000	0.241604	80.540992	1.417708	0.135106	0.242269	0.000000	1.273240
328.00	145.03	565.576365	0.000000	0.256428	79.590684	1.303202	0.158814	0.271661	0.000000	1.273240
332.00	172.02	634.077086	0.000000	0.271288	78.660399	1.219789	0.178664	0.295293	0.000000	1.273240
336.00	179.04	625.683071	0.000000	0.286150	77.751424	1.158258	0.194880	0.314033	0.000000	1.273240
340.00	201.16	668.329202	0.000000	0.300985	76.864847	1.108217	0.209147	0.330147	0.000000	1.273240
344.00	199.44	631.599966	0.000000	0.315766	76.001353	1.063848	0.222668	0.345125	0.000000	1.273240
348.00	218.29	660.541565	0.000000	0.330473	75.161262	1.023251	0.235804	0.359424	0.000000	1.273240
352.00	246.83	715.276388	0.000000	0.345087	74.344660	0.985798	0.248610	0.373141	0.000000	1.273240
356.00	267.80	744.742649	0.000000	0.359592	73.551462	0.951241	0.261041	0.386262	0.000000	1.273240
360.00	257.03	687.281182	0.000000	0.373977	72.781436	0.919715	0.272923	0.398633	0.000000	1.273240
364.00	310.33	799.339581	0.000000	0.388227	72.034316	0.889816	0.284691	0.410732	0.000000	1.273240
368.00	341.12	847.856437	0.000000	0.402334	71.309696	0.861436	0.296330	0.422555	0.000000	1.273240
372.00	348.96	838.258944	0.000000	0.416288	70.607101	0.834478	0.307826	0.434101	0.000000	1.273240
376.00	353.98	823.051499	0.000000	0.430083	69.926007	0.808851	0.319169	0.445369	0.000000	1.273240
380.00	400.47	902.535414	0.000000	0.443713	69.265850	0.784472	0.330346	0.456361	0.000000	1.273240
384.00	337.54	738.328134	0.000000	0.457173	68.626039	0.761263	0.341351	0.467076	0.000000	1.273240
388.00	385.47	819.351929	0.000000	0.470459	68.005964	0.739151	0.352176	0.477519	0.000000	1.273240
392.00	412.02	852.036249	0.000000	0.483569	67.405005	0.718072	0.362815	0.487692	0.000000	1.273240
396.00	436.60	879.348216	0.000000	0.496501	66.822539	0.697962	0.373264	0.497598	0.000000	1.273240
400.00	654.16	1284.547892	0.000000	0.509253	66.257943	0.678765	0.383520	0.507243	0.000000	1.273240
404.00	652.79	1250.973382	0.000000	0.521825	65.710599	0.660427	0.393579	0.516630	0.000000	1.273240
408.00	680.46	1273.763183	0.000000	0.534215	65.179899	0.642899	0.403441	0.525766	0.000000	1.273240
412.00	713.94	1306.561046	0.000000	0.546426	64.665246	0.626135	0.413105	0.534654	0.000000	1.273240
416.00	739.82	1324.761449	0.000000	0.558456	64.166057	0.610091	0.422569	0.543301	0.000000	1.273240
420.00	756.05	1325.677943	0.000000	0.570308	63.681763	0.594727	0.431836	0.551713	0.000000	1.273240
424.00	752.49	1292.977838	0.000000	0.581983	63.211812	0.580007	0.440905	0.559895	0.000000	1.273240
428.00	708.60	1193.975312	0.000000	0.593482	62.755670	0.565894	0.449779	0.567852	0.000000	1.273240
432.00	734.91	1215.109717	0.000000	0.604806	62.312821	0.552357	0.458459	0.575592	0.000000	1.273240
436.00	823.36	1336.720625	0.000000	0.615959	61.882764	0.539364	0.466946	0.583119	0.000000	1.273240
440.00	835.62	1332.858851	0.000000	0.626942	61.465021	0.526888	0.475245	0.590440	0.000000	1.273240
444.00	914.77	1434.351654	0.000000	0.637757	61.059127	0.514900	0.483357	0.597560	0.000000	1.273240
448.00	998.72	1540.268453	0.000000	0.648407	60.664640	0.503347	0.491306	0.604504	0.000000	1.273240
452.00	1033.36	1568.322046	0.000000	0.658894	60.281126	0.492344	0.498998	0.611192	0.000000	1.273240
456.00	1025.06	1531.725424	0.000000	0.669221	59.908169	0.481940	0.506383	0.617584	0.000000	1.273240
460.00	1045.55	1538.950438	0.000000	0.679391	59.545377	0.472113	0.513458	0.623683	0.000000	1.273240
464.00	1046.04	1517.307344	0.000000	0.689407	59.192384	0.462664	0.520354	0.629604	0.000000	1.273240
468.00	1050.05	1501.636557	0.000000	0.699269	58.848836	0.453395	0.527208	0.635467	0.000000	1.273240
472.00	1066.57	1504.371458	0.000000	0.708982	58.514370	0.444648	0.533760	0.641050	0.000000	1.273240
476.00	1095.02	1523.931300	0.000000	0.718548	58.188652	0.436408	0.540007	0.646354	0.000000	1.273240
480.00	1124.59	1544.836196	0.000000	0.727970	57.871387	0.428297	0.546226	0.651618	0.000000	1.273240
484.00	1068.65	1449.514359	0.000000	0.737250	57.562247	0.420723	0.552098	0.656572	0.000000	1.273240
488.00	1068.54	1431.610763	0.000000	0.746391	57.260944	0.413612	0.557670	0.661258	0.000000	1.273240
492.00	1093.20	1447.194396	0.000000	0.755396	56.967207	0.406830	0.563036	0.665758	0.000000	1.273240
496.00	1106.93	1448.356951	0.000000	0.764267	56.680770	0.400365	0.568198	0.670076	0.000000	1.273240
500.00	1069.34	1383.351109	0.000000	0.773007	56.401371	0.394326	0.573064	0.674134	0.000000	1.273240
504.00	1115.75	1427.494857	0.000000	0.781617	56.128777	0.388522	0.577779	0.678058	0.000000	1.273240
508.00	1137.12	1439.207311	0.000000	0.790102	55.862753	0.382943	0.582348	0.681851	0.000000	1.273240
512.00	1120.19	1402.941004	0.000000	0.798462	55.603076	0.377579	0.586775	0.685519	0.000000	1.273240
516.00	1082.97	1342.470229	0.000000	0.806700	55.349538	0.372301	0.591165	0.689147	0.000000	1.273240
520.00	1075.80	1320.289380	0.000000	0.814818	55.101948	0.366860	0.595724	0.692907	0.000000	1.273240
524.00	1126.01	1368.470142	0.000000	0.822821	54.860007	0.363047	0.598940	0.695554	0.000000	1.273240
528.00	1162.84	1399.814722	0.000000	0.830709	54.623640	0.358875	0.602478	0.698462	0.000000	1.273240
532.00	1177.11	1403.854705	0.000000	0.838484	54.392637	0.354817	0.605940	0.701302	0.000000	1.273240
536.00	1167.42	1379.688779	0.000000	0.846148	54.166824	0.350925	0.609279	0.704037	0.000000	1.273240
540.00	1140.42	1335.854969	0.000000	0.853704	53.946054	0.346832	0.612810	0.706924	0.000000	1.273240
544.00	1165.31	1353.200126	0.000000	0.861153	53.730147	0.342892	0.616228	0.709715	0.000000	1.273240
548.00	1179.01	1357.533907	0.000000	0.868497	53.518952	0.339100	0.619537	0.712411	0.000000	1.273240
552.00	1181.61	1349.267937	0.000000	0.875740	53.312286	0.336049	0.622211	0.714588	0.000000	1.273240
556.00	1173.48	1329.147454	0.000000	0.882884	53.110017	0.333614	0.624355	0.716331	0.000000	1.273240
560.00	1155.31	1298.208733	0.000000	0.889928	52.912056	0.330949	0.626708	0.718242	0.000000	1.273240
564.00	1164.89	1298.828868	0.000000	0.896876	52.718267	0.328169	0.629172	0.720241	0.000000	1.273240
568.00	1157.31	1280.594834	0.000000	0.903729	52.528482	0.326051	0.631057	0.721768	0.000000	1.273240
572.00	1161.55	1275.746002	0.000000	0.910488	52.342655	0.323269	0.633541	0.723779	0.000000	1.273240
576.00	1178.77	1285.247394	0.000000	0.917152	52.160695	0.319399	0.637012	0.726586	0.000000	1.273240
580.00	1181.75	1279.330665	0.000000	0.923726	51.982463	0.314916	0.641057	0.729850	0.000000	1.273240
584.00	1177.45	1265.784726	0.000000	0.930211	51.807813	0.310538	0.645032	0.733053	0.000000	1.273240
588.00	1152.69	1230.702689	0.000000	0.936609	51.636652	0.306079	0.649105	0.736328	0.000000	1.273240
592.00	1149.84	1219.440228	0.000000	0.942924	51.468818	0.302618	0.652285	0.738882	0.000000	1.273240
596.00	1161.96	1224.198222	0.000000	0.949158	51.304214	0.300209	0.654508	0.740663	0.000000	1.273240
600.00	1131.56	1184.493441	0.000000	0.955309	51.142803	0.297890	0.656654	0.742383	0.000000	1.273240
604.00	1151.63	1197.890219	0.000000	0.961381	50.984495	0.295658	0.658727	0.744042	0.000000	1.273240
608.00	1149.24	1188.007814	0.000000	0.967367	50.829362	0.290810	0.663251	0.747658	0.000000	1.273240
612.00	1148.27	1179.805021	0.000000	0.973274	50.677200	0.285442	0.668297	0.751682	0.000000	1.273240
616.00	1156.39	1181.069201	0.000000	0.979105	50.527879	0.280453	0.673022	0.755442	0.000000	1.273240
620.00	1164.44	1182.340732	0.000000	0.984862	50.381339	0.275539	0.677707	0.759163	0.000000	1.273240
624.00	1151.24	1162.225328	0.000000	0.990545	50.237507	0.270698	0.682355	0.762847	0.000000	1.273240
628.00	1137.68	1142.071870	0.000000	0.996155	50.096311	0.265927	0.686967	0.766495	0.000000	1.273240
632.00	1132.06	1130.142555	0.000000	1.001695	49.957670	0.261465	0.691309	0.769923	0.000000	1.273240
636.00	1134.54	1126.469267	0.000000	1.007165	49.821516	0.257309	0.695377	0.773129	0.000000	1.273240
640.00	1136.91	1122.800743	0.000000	1.012566	49.687800	0.253217	0.699407	0.776300	0.000000	1.273240
644.00	1136.54	1116.557462	0.000000	1.017900	49.556466	0.249066	0.703517	0.779528	0.000000	1.273240
648.00	1136.04	1110.314885	0.000000	1.023167	49.427448	0.244976	0.707592	0.782723	0.000000	1.273240
652.00	1132.71	1101.459696	0.000000	1.028370	49.300681	0.241063	0.711512	0.785792	0.000000	1.273240
656.00	1126.52	1089.993175	0.000000	1.033508	49.176108	0.237327	0.715275	0.788733	0.000000	1.273240
660.00	1120.14	1078.529167	0.000000	1.038583	49.053682	0.233645	0.719003	0.791643	0.000000	1.273240
664.00	1111.23	1064.805484	0.000000	1.043596	48.933345	0.230136	0.722575	0.794425	0.000000	1.273240
668.00	1102.12	1051.087456	0.000000	1.048548	48.815051	0.226678	0.726111	0.797177	0.000000	1.273240
672.00	1095.65	1040.068262	0.000000	1.053440	48.698763	0.223090	0.729799	0.800043	0.000000	1.273240
676.00	1091.86	1031.742347	0.000000	1.058272	48.584433	0.219370	0.733642	0.803025	0.000000	1.273240
680.00	1087.94	1023.414453	0.000000	1.063047	48.472003	0.215697	0.737457	0.805980	0.000000	1.273240
684.00	1072.71	1004.628569	0.000000	1.067770	48.361289	0.214532	0.738670	0.806919	0.000000	1.273240
688.00	1057.73	986.291212	0.000000	1.072436	48.252402	0.213167	0.740096	0.808021	0.000000	1.273240
692.00	1053.58	978.217021	0.000000	1.077046	48.145308	0.211468	0.741873	0.809395	0.000000	1.273240
696.00	1060.16	980.179112	0.000000	1.081600	48.039959	0.209550	0.743885	0.810949	0.000000	1.273240
700.00	1066.76	982.188148	0.000000	1.086102	47.936303	0.207640	0.745894	0.812500	0.000000	1.273240
704.00	1064.69	976.295178	0.000000	1.090546	47.834398	0.204031	0.749705	0.815437	0.000000	1.273240
708.00	1062.63	970.496647	0.000000	1.094938	47.734113	0.200389	0.753570	0.818412	0.000000	1.273240
712.00	1018.47	926.435574	0.000000	1.099345	47.633902	0.223118	0.729771	0.800021	0.000000	1.273240
716.00	972.11	880.771552	0.000000	1.103704	47.535208	0.246388	0.706183	0.781619	0.000000	1.273240
720.00	937.35	845.984851	0.000000	1.107995	47.438444	0.262318	0.690477	0.769267	0.000000	1.273240
724.00	943.11	847.977700	0.000000	1.112186	47.344318	0.257977	0.694722	0.772613	0.000000	1.273240
728.00	948.94	850.051287	0.000000	1.116329	47.251639	0.253614	0.699015	0.775991	0.000000	1.273240
732.00	955.43	852.750656	0.000000	1.120408	47.160732	0.243012	0.709557	0.784262	0.000000	1.273240
736.00	966.37	859.442883	0.000000	1.124417	47.071732	0.223256	0.729628	0.799910	0.000000	1.273240
740.00	992.92	879.973758	0.000000	1.128351	46.984733	0.192177	0.762358	0.825161	0.000000	1.273240
744.00	992.61	876.629283	0.000000	1.132304	46.897618	0.186383	0.768620	0.829956	0.000000	1.273240
748.00	993.82	874.675706	0.000000	1.136210	46.811867	0.179458	0.776172	0.835723	0.000000	1.273240
752.00	831.18	728.852575	0.000000	1.140399	46.720269	0.297383	0.657125	0.742760	0.000000	1.273240
756.00	709.04	619.522361	0.000000	1.144502	46.630869	0.398632	0.569590	0.671238	0.000000	1.273240
760.00	630.39	548.883430	0.000000	1.148487	46.544372	0.470415	0.514690	0.624743	0.000000	1.273240
764.00	687.69	596.920491	0.000000	1.152059	46.467135	0.400638	0.567980	0.669893	0.000000	1.273240
768.00	774.75	670.472585	0.000000	1.155527	46.392371	0.307958	0.647386	0.734946	0.000000	1.273240
772.00	866.97	748.047688	0.000000	1.158979	46.318195	0.225034	0.727799	0.798489	0.000000	1.273240
776.00	896.29	770.968728	0.000000	1.162552	46.241659	0.203263	0.750518	0.816064	0.000000	1.273240
780.00	953.56	817.779390	0.000000	1.166032	46.167380	0.161179	0.796465	0.851140	0.000000	1.273240
784.00	935.91	800.202043	0.000000	1.169586	46.091745	0.161855	0.795705	0.850564	0.000000	1.273240
788.00	918.60	783.048775	0.000000	1.173101	46.017181	0.162293	0.795213	0.850192	0.000000	1.273240
792.00	910.14	773.549266	0.000000	1.176579	45.943659	0.162635	0.794829	0.849902	0.000000	1.273240
796.00	910.49	771.593111	0.000000	1.180019	45.871158	0.162905	0.794526	0.849672	0.000000	1.273240
800.00	910.99	769.794885	0.000000	1.183422	45.799660	0.163063	0.794349	0.849538	0.000000	1.273240
804.00	883.11	744.089054	0.000000	1.186827	45.728345	0.177193	0.778658	0.837618	0.000000	1.273240
808.00	862.29	724.505722	0.000000	1.190183	45.658286	0.186106	0.768921	0.830186	0.000000	1.273240
812.00	829.93	695.359406	0.000000	1.193527	45.588675	0.203683	0.750073	0.815721	0.000000	1.273240
816.00	793.21	662.753096	0.000000	1.196846	45.519797	0.224614	0.728231	0.798825	0.000000	1.273240
820.00	762.62	635.456064	0.000000	1.200120	45.452072	0.241174	0.711401	0.785705	0.000000	1.273240
824.00	769.13	639.195649	0.000000	1.203276	45.386956	0.227437	0.725333	0.796572	0.000000	1.273240
828.00	777.61	644.575861	0.000000	1.206394	45.322815	0.211863	0.741460	0.809076	0.000000	1.273240
832.00	786.31	650.117653	0.000000	1.209482	45.259478	0.197189	0.756982	0.821035	0.000000	1.273240
836.00	794.64	655.347382	0.000000	1.212541	45.196898	0.183961	0.771253	0.831968	0.000000	1.273240
840.00	807.58	664.370458	0.000000	1.215557	45.135370	0.166705	0.790275	0.846449	0.000000	1.273240
844.00	808.25	663.280369	0.000000	1.218568	45.074117	0.158860	0.799077	0.853116	0.000000	1.273240
848.00	811.73	664.511545	0.000000	1.221541	45.013801	0.148490	0.810863	0.862009	0.000000	1.273240
852.00	818.64	668.559748	0.000000	1.224488	44.954162	0.139927	0.820726	0.869422	0.000000	1.273240
856.00	822.93	670.455369	0.000000	1.227425	44.894884	0.138497	0.822384	0.870666	0.000000	1.273240
860.00	827.23	672.365972	0.000000	1.230333	44.836359	0.137072	0.824041	0.871908	0.000000	1.273240
864.00	818.50	663.715559	0.000000	1.233212	44.778549	0.136054	0.825226	0.872795	0.000000	1.273240
868.00	809.73	655.085744	0.000000	1.236063	44.721464	0.135051	0.826396	0.873672	0.000000	1.273240
872.00	804.69	649.530715	0.000000	1.238885	44.665081	0.134233	0.827350	0.874386	0.000000	1.273240
876.00	803.43	647.049412	0.000000	1.241681	44.609388	0.133595	0.828096	0.874944	0.000000	1.273240
880.00	802.15	644.586481	0.000000	1.244448	44.554383	0.132962	0.828837	0.875499	0.000000	1.273240
884.00	789.41	632.947380	0.000000	1.247205	44.499727	0.138114	0.822829	0.870999	0.000000	1.273240
888.00	778.61	622.922034	0.000000	1.249930	44.445828	0.141636	0.818747	0.867937	0.000000	1.273240
892.00	732.54	584.758802	0.000000	1.252720	44.390789	0.176881	0.779002	0.837880	0.000000	1.273240
896.00	686.82	547.057868	0.000000	1.255485	44.336355	0.212795	0.740485	0.808322	0.000000	1.273240
900.00	653.11	519.080904	0.000000	1.258197	44.283125	0.238586	0.714005	0.787741	0.000000	1.273240
904.00	648.83	514.619738	0.000000	1.260788	44.232364	0.231667	0.721014	0.793210	0.000000	1.273240
908.00	644.66	510.276970	0.000000	1.263353	44.182228	0.224462	0.728386	0.798946	0.000000	1.273240
912.00	640.01	505.581821	0.000000	1.265896	44.132654	0.217945	0.735120	0.804169	0.000000	1.273240
916.00	634.82	500.479595	0.000000	1.268416	44.083624	0.212217	0.741089	0.808789	0.000000	1.273240
920.00	629.69	495.461438	0.000000	1.270911	44.035186	0.206270	0.747339	0.813614	0.000000	1.273240
924.00	471.27	369.915590	0.000000	1.273988	43.975611	0.407804	0.562261	0.665109	0.000000	1.273240
928.00	396.10	310.231132	0.000000	1.276803	43.921241	0.527129	0.475083	0.590298	0.000000	1.273240
932.00	355.68	277.991325	0.000000	1.279450	43.870240	0.596535	0.430735	0.550716	0.000000	1.273240
936.00	332.62	259.459477	0.000000	1.281980	43.821588	0.633959	0.408566	0.530487	0.000000	1.273240
940.00	311.96	242.868713	0.000000	1.284482	43.773593	0.669196	0.388737	0.512120	0.000000	1.273240
944.00	304.61	236.700717	0.000000	1.286884	43.727620	0.677910	0.383983	0.507677	0.000000	1.273240
948.00	297.44	230.702236	0.000000	1.289264	43.682170	0.686504	0.379352	0.503332	0.000000	1.273240
952.00	303.45	234.949105	0.000000	1.291538	43.638819	0.666886	0.390006	0.513305	0.000000	1.273240
956.00	324.65	250.947917	0.000000	1.293699	43.597701	0.616486	0.418771	0.539838	0.000000	1.273240
960.00	349.50	269.710712	0.000000	1.295825	43.557322	0.561687	0.452458	0.570246	0.000000	1.273240
964.00	398.61	307.139601	0.000000	1.297808	43.519728	0.465988	0.517917	0.627515	0.000000	1.273240
968.00	473.28	364.153486	0.000000	1.299685	43.484215	0.341782	0.617195	0.710503	0.000000	1.273240
972.00	543.91	417.870057	0.000000	1.301616	43.447742	0.242908	0.709661	0.784343	0.000000	1.273240
976.00	559.80	429.371324	0.000000	1.303765	43.407211	0.224359	0.728493	0.799028	0.000000	1.273240
980.00	578.36	442.885169	0.000000	1.305886	43.367287	0.203105	0.750686	0.816193	0.000000	1.273240
984.00	593.92	454.069722	0.000000	1.307986	43.327817	0.181719	0.773699	0.833836	0.000000	1.273240
988.00	615.89	470.128050	0.000000	1.310046	43.289179	0.153396	0.805265	0.857790	0.000000	1.273240
992.00	634.14	483.303683	0.000000	1.312096	43.250807	0.128057	0.834597	0.879803	0.000000	1.273240
996.00	634.82	483.056903	0.000000	1.314179	43.211861	0.120535	0.843508	0.886446	0.000000	1.273240
1000.00	638.89	485.391308	0.000000	1.316233	43.173551	0.109190	0.857129	0.896560	0.000000	1.273240
1004.00	634.17	481.050069	0.000000	1.318300	43.135059	0.108475	0.857994	0.897201	0.000000	1.273240
1008.00	629.43	476.716550	0.000000	1.320348	43.096975	0.107768	0.858851	0.897836	0.000000	1.273240
1012.00	624.68	472.390639	0.000000	1.322379	43.059294	0.107067	0.859701	0.898465	0.000000	1.273240
1016.00	619.91	468.072222	0.000000	1.324392	43.022009	0.106374	0.860543	0.899088	0.000000	1.273240
1020.00	615.13	463.761189	0.000000	1.326387	42.985115	0.105687	0.861378	0.899706	0.000000	1.273240
1024.00	610.33	459.457430	0.000000	1.328364	42.948606	0.105007	0.862206	0.900318	0.000000	1.273240
1028.00	605.51	455.160837	0.000000	1.330325	42.912475	0.104333	0.863026	0.900925	0.000000	1.273240
1032.00	600.68	450.871304	0.000000	1.332268	42.876719	0.103666	0.863840	0.901527	0.000000	1.273240
1036.00	595.84	446.588726	0.000000	1.334195	42.841330	0.103004	0.864647	0.902123	0.000000	1.273240
1040.00	590.98	442.313000	0.000000	1.336104	42.806304	0.102349	0.865447	0.902714	0.000000	1.273240
1044.00	586.10	438.044024	0.000000	1.337998	42.771636	0.101700	0.866240	0.903300	0.000000	1.273240
1048.00	581.21	433.781697	0.000000	1.339875	42.737320	0.101057	0.867027	0.903881	0.000000	1.273240
1052.00	559.65	417.089956	0.000000	1.341803	42.702144	0.121966	0.841806	0.885179	0.000000	1.273240
1056.00	540.01	401.880973	0.000000	1.343712	42.667353	0.142131	0.818176	0.867508	0.000000	1.273240
1060.00	525.57	390.590528	0.000000	1.345587	42.633245	0.156151	0.802139	0.855430	0.000000	1.273240
1064.00	513.34	380.975325	0.000000	1.347439	42.599612	0.167618	0.789256	0.845676	0.000000	1.273240
1068.00	502.43	372.373413	0.000000	1.349271	42.566393	0.177580	0.778233	0.837294	0.000000	1.273240
1072.00	492.44	364.478361	0.000000	1.351085	42.533555	0.186516	0.768475	0.829845	0.000000	1.273240
1076.00	483.14	357.117381	0.000000	1.352881	42.501079	0.194696	0.759652	0.823085	0.000000	1.273240
1080.00	474.38	350.181151	0.000000	1.354661	42.468951	0.202286	0.751554	0.816861	0.000000	1.273240
1084.00	466.06	343.595025	0.000000	1.356425	42.437159	0.209400	0.744042	0.811070	0.000000	1.273240
1088.00	458.12	337.305181	0.000000	1.358174	42.405697	0.216121	0.737016	0.805638	0.000000	1.273240
1092.00	450.50	331.271187	0.000000	1.359907	42.374554	0.222507	0.730401	0.800510	0.000000	1.273240
1096.00	443.16	325.461683	0.000000	1.361625	42.343726	0.228605	0.724138	0.795643	0.000000	1.273240
1100.00	436.06	319.851717	0.000000	1.363328	42.313206	0.234452	0.718185	0.791004	0.000000	1.273240
1104.00	412.29	302.019913	0.000000	1.365108	42.281371	0.268996	0.683997	0.764146	0.000000	1.273240
1108.00	392.54	287.185790	0.000000	1.366858	42.250101	0.298560	0.656033	0.741886	0.000000	1.273240
1112.00	375.43	274.319191	0.000000	1.368585	42.219295	0.324893	0.632090	0.722605	0.000000	1.273240
1116.00	360.22	262.879011	0.000000	1.370292	42.188896	0.348904	0.611020	0.705461	0.000000	1.273240
1120.00	346.48	252.537547	0.000000	1.371980	42.158871	0.371142	0.592133	0.689946	0.000000	1.273240
1124.00	333.90	243.077750	0.000000	1.373651	42.129197	0.391964	0.574978	0.675729	0.000000	1.273240
1128.00	322.30	234.346666	0.000000	1.375305	42.099855	0.411622	0.559238	0.662574	0.000000	1.273240
1132.00	311.51	226.231493	0.000000	1.376944	42.070832	0.430302	0.544682	0.650313	0.000000	1.273240
1136.00	301.42	218.646072	0.000000	1.378567	42.042116	0.448141	0.531134	0.638814	0.000000	1.273240
1140.00	291.94	211.522753	0.000000	1.380176	42.013697	0.465251	0.518457	0.627978	0.000000	1.273240
1144.00	283.00	204.807204	0.000000	1.381771	41.985568	0.481717	0.506542	0.617722	0.000000	1.273240
1148.00	274.53	198.454973	0.000000	1.383352	41.957722	0.497612	0.495301	0.607981	0.000000	1.273240
1152.00	273.06	197.172849	0.000000	1.384864	41.931105	0.495873	0.496518	0.609039	0.000000	1.273240
1156.00	278.52	200.904491	0.000000	1.386309	41.905724	0.476359	0.510389	0.621041	0.000000	1.273240
1160.00	284.38	204.926378	0.000000	1.387739	41.880626	0.456050	0.525236	0.633782	0.000000	1.273240
1164.00	290.73	209.288010	0.000000	1.389154	41.855816	0.434828	0.541212	0.647376	0.000000	1.273240
1168.00	297.65	214.053424	0.000000	1.390554	41.831300	0.412540	0.558514	0.661967	0.000000	1.273240
1172.00	305.26	219.307820	0.000000	1.391939	41.807085	0.388986	0.577401	0.677743	0.000000	1.273240
1176.00	313.73	225.168631	0.000000	1.393307	41.783183	0.363892	0.598225	0.694966	0.000000	1.273240
1180.00	323.29	231.805351	0.000000	1.394658	41.759615	0.336867	0.621493	0.714004	0.000000	1.273240
1184.00	334.31	239.478390	0.000000	1.395990	41.736409	0.307314	0.647975	0.735420	0.000000	1.273240
1188.00	347.40	248.625679	0.000000	1.397299	41.713618	0.274239	0.678952	0.760150	0.000000	1.273240
1192.00	363.77	260.097444	0.000000	1.398579	41.691346	0.235733	0.716887	0.789992	0.000000	1.273240
1196.00	386.44	276.065328	0.000000	1.399816	41.669860	0.186948	0.768007	0.829487	0.000000	1.273240
1200.00	440.99	314.791687	0.000000	1.400879	41.651409	0.087425	0.883877	0.916287	0.000000	1.273240
1204.00	439.44	313.381515	0.000000	1.402249	41.627665	0.086720	0.884757	0.916934	0.000000	1.273240
1208.00	437.89	311.975201	0.000000	1.403608	41.604129	0.086012	0.885642	0.917583	0.000000	1.273240
1212.00	436.34	310.572836	0.000000	1.404956	41.580796	0.085301	0.886532	0.918236	0.000000	1.273240
1216.00	434.79	309.174524	0.000000	1.406295	41.557665	0.084586	0.887428	0.918893	0.000000	1.273240
1220.00	433.24	307.780380	0.000000	1.407623	41.534734	0.083866	0.888330	0.919554	0.000000	1.273240
1224.00	431.69	306.390533	0.000000	1.408942	41.511999	0.083142	0.889238	0.920221	0.000000	1.273240
1228.00	430.13	305.005128	0.000000	1.410251	41.489458	0.082412	0.890155	0.920892	0.000000	1.273240
1232.00	428.58	303.624328	0.000000	1.411550	41.467110	0.081677	0.891080	0.921570	0.000000	1.273240
1236.00	427.03	302.248315	0.000000	1.412839	41.444951	0.080935	0.892014	0.922254	0.000000	1.273240
1240.00	425.48	300.877293	0.000000	1.414119	41.422980	0.080186	0.892958	0.922945	0.000000	1.273240
1244.00	421.78	297.990352	0.000000	1.415401	41.400994	0.083029	0.889381	0.920325	0.000000	1.273240
1248.00	418.52	295.425242	0.000000	1.416671	41.379231	0.085157	0.886712	0.918368	0.000000	1.273240
1252.00	404.41	285.198385	0.000000	1.417992	41.356621	0.105771	0.861276	0.899631	0.000000	1.273240
1256.00	391.57	275.891504	0.000000	1.419299	41.334289	0.124616	0.838661	0.882836	0.000000	1.273240
1260.00	382.28	269.099474	0.000000	1.420577	41.312458	0.137609	0.823416	0.871439	0.000000	1.273240
1264.00	374.48	263.377140	0.000000	1.421839	41.290938	0.148157	0.811244	0.862296	0.000000	1.273240
1268.00	367.58	258.298661	0.000000	1.423087	41.269670	0.157256	0.800889	0.854485	0.000000	1.273240
1272.00	361.30	253.667713	0.000000	1.424323	41.248628	0.165361	0.791776	0.847588	0.000000	1.273240
1276.00	355.49	249.374138	0.000000	1.425548	41.227795	0.172725	0.783586	0.841369	0.000000	1.273240
1280.00	350.05	245.348661	0.000000	1.426763	41.207161	0.179507	0.776118	0.835682	0.000000	1.273240
1284.00	344.92	241.544334	0.000000	1.427967	41.186718	0.185812	0.769240	0.830430	0.000000	1.273240
1288.00	340.04	237.927643	0.000000	1.429162	41.166460	0.191714	0.762856	0.825543	0.000000	1.273240
1292.00	335.38	234.473750	0.000000	1.430347	41.146381	0.197269	0.756897	0.820970	0.000000	1.273240
1296.00	330.92	231.163748	0.000000	1.431523	41.126479	0.202516	0.751310	0.816674	0.000000	1.273240
1300.00	326.63	227.982991	0.000000	1.432691	41.106749	0.207486	0.746056	0.812625	0.000000	1.273240
1304.00	231.15	161.125792	0.000000	1.434617	41.074222	0.446113	0.532657	0.640112	0.000000	1.273240
1308.00	185.70	129.295608	0.000000	1.436242	41.046832	0.594885	0.431740	0.551626	0.000000	1.273240
1312.00	155.40	108.085077	0.000000	1.437764	41.021203	0.714684	0.364555	0.489347	0.000000	1.273240
1316.00	133.03	92.434878	0.000000	1.439225	40.996621	0.818329	0.314926	0.441168	0.000000	1.273240
1320.00	115.62	80.252901	0.000000	1.440645	40.972782	0.911248	0.276205	0.402022	0.000000	1.273240
1324.00	101.58	70.444896	0.000000	1.442031	40.949525	0.996355	0.244931	0.369223	0.000000	1.273240
1328.00	90.01	62.359939	0.000000	1.443390	40.926748	1.075435	0.219055	0.341149	0.000000	1.273240
1332.00	80.29	55.577466	0.000000	1.444726	40.904383	1.149675	0.197256	0.316740	0.000000	1.273240
1336.00	72.03	49.809540	0.000000	1.446041	40.882383	1.219914	0.178632	0.295255	0.000000	1.273240
1340.00	64.91	44.850354	0.000000	1.447339	40.860711	1.286773	0.162541	0.276161	0.000000	1.273240
1344.00	58.74	40.547827	0.000000	1.448619	40.839340	1.350723	0.148508	0.259053	0.000000	1.273240
1348.00	53.34	36.786548	0.000000	1.449885	40.818247	1.412136	0.136173	0.243622	0.000000	1.273240
1352.00	42.16	29.048870	0.000000	1.451472	40.791813	1.572580	0.108570	0.207509	0.000000	1.273240
1356.00	29.97	20.620728	0.000000	1.453307	40.761300	1.809257	0.077729	0.163776	0.000000	1.273240
1360.00	22.03	15.140802	0.000000	1.455057	40.732247	2.022015	0.057560	0.132388	0.000000	1.273240
1364.00	16.60	11.395760	0.000000	1.456743	40.704299	2.217236	0.043693	0.108910	0.000000	1.273240
1368.00	12.75	8.743072	0.000000	1.458378	40.677235	2.398866	0.033809	0.090821	0.000000	1.273240
1372.00	9.95	6.812192	0.000000	1.459970	40.650908	2.569548	0.026569	0.076570	0.000000	1.273240
1376.00	7.86	5.375996	0.000000	1.461526	40.625213	2.731160	0.021148	0.065144	0.000000	1.273240
1380.00	6.27	4.288706	0.000000	1.463050	40.600070	2.885089	0.017017	0.055850	0.000000	1.273240
1384.00	5.06	3.453305	0.000000	1.464546	40.575419	3.032402	0.013822	0.048200	0.000000	1.273240
1388.00	4.11	2.803306	0.000000	1.466017	40.551213	3.173934	0.011318	0.041839	0.000000	1.273240
1392.00	3.36	2.292029	0.000000	1.467466	40.527414	3.310357	0.009335	0.036503	0.000000	1.273240
1396.00	2.77	1.886016	0.000000	1.468893	40.503988	3.442221	0.007749	0.031994	0.000000	1.273240
1400.00	2.29	1.560866	0.000000	1.470300	40.480910	3.569984	0.006470	0.028156	0.000000	1.273240
1404.00	2.73	1.859055	0.000000	1.470834	40.472158	3.440274	0.007771	0.032056	0.000000	1.273240
1408.00	3.29	2.233460	0.000000	1.471341	40.463861	3.304402	0.009414	0.036721	0.000000	1.273240
1412.00	3.98	2.705678	0.000000	1.471821	40.456005	3.162606	0.011501	0.042315	0.000000	1.273240
1416.00	4.87	3.306797	0.000000	1.472273	40.448608	3.014526	0.014175	0.049069	0.000000	1.273240
1420.00	6.01	4.081176	0.000000	1.472695	40.441707	2.859487	0.017644	0.057298	0.000000	1.273240
1424.00	7.50	5.093276	0.000000	1.473083	40.435352	2.696533	0.022208	0.067439	0.000000	1.273240
1428.00	9.49	6.439344	0.000000	1.473434	40.429615	2.524363	0.028319	0.080109	0.000000	1.273240
1432.00	12.19	8.268210	0.000000	1.473742	40.424593	2.341196	0.036678	0.096213	0.000000	1.273240
1436.00	15.95	10.820520	0.000000	1.473997	40.420422	2.144522	0.048417	0.117124	0.000000	1.273240
1440.00	21.39	14.508900	0.000000	1.474188	40.417307	1.930623	0.065488	0.145058	0.000000	1.273240
1444.00	29.63	20.100491	0.000000	1.474294	40.415573	1.693577	0.091520	0.183861	0.000000	1.273240
1448.00	43.06	29.204186	0.000000	1.474280	40.415801	1.422833	0.134132	0.241030	0.000000	1.273240
1452.00	55.00	37.298773	0.000000	1.474571	40.411043	1.244358	0.172572	0.288126	0.000000	1.273240
1456.00	58.69	39.781183	0.000000	1.475291	40.399296	1.194448	0.185172	0.302871	0.000000	1.273240
1460.00	62.79	42.538814	0.000000	1.475998	40.387753	1.142688	0.199212	0.318961	0.000000	1.273240
1464.00	67.37	45.621172	0.000000	1.476693	40.376425	1.088835	0.214950	0.336608	0.000000	1.273240
1468.00	72.53	49.091468	0.000000	1.477374	40.365329	1.032589	0.232716	0.356084	0.000000	1.273240
1472.00	78.38	53.032166	0.000000	1.478039	40.354485	0.973564	0.252941	0.377734	0.000000	1.273240
1476.00	85.10	57.553714	0.000000	1.478688	40.343918	0.911262	0.276199	0.402016	0.000000	1.273240
1480.00	92.91	62.808949	0.000000	1.479318	40.333666	0.845009	0.303283	0.429553	0.000000	1.273240
1484.00	102.14	69.018426	0.000000	1.479926	40.323779	0.773859	0.335334	0.461230	0.000000	1.273240
1488.00	113.29	76.518721	0.000000	1.480507	40.314333	0.696404	0.374086	0.498374	0.000000	1.273240
1492.00	127.17	85.865437	0.000000	1.481054	40.305454	0.610384	0.422395	0.543143	0.000000	1.273240
1496.00	145.33	98.092234	0.000000	1.481552	40.297364	0.511698	0.485548	0.599477	0.000000	1.273240
1500.00	171.27	115.568368	0.000000	1.481970	40.290568	0.391192	0.575606	0.676251	0.000000	1.273240
1504.00	173.62	117.095619	0.000000	1.482745	40.277999	0.377122	0.587155	0.685833	0.000000	1.273240
1508.00	176.16	118.748451	0.000000	1.483512	40.265556	0.362399	0.599488	0.696005	0.000000	1.273240
1512.00	178.92	120.544343	0.000000	1.484272	40.253242	0.346948	0.612710	0.706842	0.000000	1.273240
1516.00	181.92	122.506203	0.000000	1.485024	40.241063	0.330670	0.626955	0.718442	0.000000	1.273240
1520.00	185.22	124.664516	0.000000	1.485767	40.229025	0.313432	0.642401	0.730934	0.000000	1.273240
1524.00	188.88	127.060878	0.000000	1.486502	40.217136	0.295054	0.659289	0.744491	0.000000	1.273240
1528.00	192.97	129.754157	0.000000	1.487227	40.205411	0.275281	0.677954	0.759359	0.000000	1.273240
1532.00	197.65	132.832029	0.000000	1.487942	40.193868	0.253735	0.698896	0.775898	0.000000	1.273240
1536.00	203.10	136.435016	0.000000	1.488643	40.182540	0.229814	0.722903	0.794681	0.000000	1.273240
1540.00	209.72	140.815023	0.000000	1.489328	40.171486	0.202446	0.751384	0.816731	0.000000	1.273240
1544.00	218.31	146.519865	0.000000	1.489988	40.160832	0.169311	0.787372	0.844246	0.000000	1.273240
1548.00	231.66	155.415440	0.000000	1.490597	40.151009	0.122552	0.841109	0.884660	0.000000	1.273240
1552.00	247.73	166.132748	0.000000	1.491182	40.141593	0.069876	0.906051	0.932510	0.000000	1.273240
1556.00	244.89	164.142758	0.000000	1.491950	40.129219	0.072424	0.902797	0.930136	0.000000	1.273240
1560.00	242.17	162.237260	0.000000	1.492712	40.116942	0.074666	0.899944	0.928053	0.000000	1.273240
1564.00	239.55	160.395121	0.000000	1.493470	40.104756	0.076682	0.897386	0.926184	0.000000	1.273240
1568.00	236.99	158.602888	0.000000	1.494222	40.092659	0.078525	0.895053	0.924479	0.000000	1.273240
1572.00	234.49	156.851415	0.000000	1.494970	40.080647	0.080230	0.892902	0.922904	0.000000	1.273240
1576.00	232.04	155.134157	0.000000	1.495713	40.068718	0.081821	0.890898	0.921437	0.000000	1.273240
1580.00	229.62	153.446248	0.000000	1.496451	40.056871	0.083317	0.889018	0.920059	0.000000	1.273240
1584.00	227.25	151.783955	0.000000	1.497184	40.045103	0.084732	0.887244	0.918758	0.000000	1.273240
1588.00	224.90	150.144338	0.000000	1.497913	40.033415	0.086077	0.885561	0.917523	0.000000	1.273240
1592.00	222.59	148.525032	0.000000	1.498638	40.021805	0.087360	0.883957	0.916347	0.000000	1.273240
1596.00	220.29	146.924102	0.000000	1.499358	40.010271	0.088589	0.882425	0.915221	0.000000	1.273240
1600.00	218.02	145.339938	0.000000	1.500074	39.998812	0.089770	0.880955	0.914141	0.000000	1.273240
1604.00	217.58	144.980942	0.000000	1.500777	39.987577	0.088202	0.882908	0.915576	0.000000	1.273240
1608.00	217.17	144.635327	0.000000	1.501475	39.976417	0.086562	0.884955	0.917079	0.000000	1.273240
1612.00	216.77	144.304875	0.000000	1.502169	39.965333	0.084841	0.887107	0.918658	0.000000	1.273240
1616.00	216.40	143.991859	0.000000	1.502858	39.954324	0.083028	0.889382	0.920326	0.000000	1.273240
1620.00	216.06	143.699231	0.000000	1.503543	39.943391	0.081106	0.891798	0.922096	0.000000	1.273240
1624.00	215.75	143.430926	0.000000	1.504224	39.932534	0.079057	0.894382	0.923987	0.000000	1.273240
1628.00	215.49	143.192351	0.000000	1.504900	39.921754	0.076852	0.897171	0.926027	0.000000	1.273240
1632.00	215.28	142.991243	0.000000	1.505572	39.911052	0.074452	0.900216	0.928252	0.000000	1.273240
1636.00	215.15	142.839268	0.000000	1.506239	39.900432	0.071799	0.903595	0.930718	0.000000	1.273240
1640.00	215.12	142.755312	0.000000	1.506900	39.889897	0.068798	0.907431	0.933515	0.000000	1.273240
1644.00	215.24	142.773223	0.000000	1.507557	39.879456	0.065281	0.911949	0.936804	0.000000	1.273240
1648.00	215.62	142.963994	0.000000	1.508206	39.869129	0.060897	0.917611	0.940921	0.000000	1.273240
1652.00	213.93	141.779587	0.000000	1.508873	39.858532	0.062597	0.915411	0.939322	0.000000	1.273240
1656.00	210.62	139.524199	0.000000	1.509553	39.847742	0.069000	0.907172	0.933326	0.000000	1.273240
1660.00	207.81	137.603056	0.000000	1.510223	39.837101	0.073840	0.900994	0.928820	0.000000	1.273240
1664.00	205.27	135.860554	0.000000	1.510887	39.826568	0.077858	0.895897	0.925096	0.000000	1.273240
1668.00	202.90	134.233448	0.000000	1.511545	39.816127	0.081355	0.891485	0.921866	0.000000	1.273240
1672.00	200.65	132.689055	0.000000	1.512199	39.805768	0.084485	0.887554	0.918985	0.000000	1.273240
1676.00	198.50	131.207978	0.000000	1.512848	39.795486	0.087339	0.883984	0.916366	0.000000	1.273240
1680.00	196.42	129.777610	0.000000	1.513493	39.785276	0.089976	0.880699	0.913953	0.000000	1.273240
1684.00	194.40	128.389211	0.000000	1.514133	39.775137	0.092436	0.877645	0.911707	0.000000	1.273240
1688.00	192.43	127.036427	0.000000	1.514770	39.765066	0.094749	0.874784	0.909601	0.000000	1.273240
1692.00	190.51	125.714461	0.000000	1.515403	39.755061	0.096937	0.872086	0.907613	0.000000	1.273240
1696.00	188.62	124.419586	0.000000	1.516032	39.745122	0.099016	0.869529	0.905728	0.000000	1.273240
1700.00	186.77	123.148831	0.000000	1.516657	39.735246	0.101000	0.867097	0.903933	0.000000	1.273240
1704.00	181.20	119.421798	0.000000	1.517321	39.724766	0.115039	0.850079	0.891332	0.000000	1.273240
1708.00	176.32	116.156041	0.000000	1.517974	39.714466	0.126876	0.835990	0.880843	0.000000	1.273240
1712.00	171.89	113.187457	0.000000	1.518619	39.704297	0.137334	0.823736	0.871679	0.000000	1.273240
1716.00	167.78	110.433610	0.000000	1.519257	39.694239	0.146823	0.812773	0.863447	0.000000	1.273240
1720.00	163.91	107.845809	0.000000	1.519890	39.684277	0.155581	0.802785	0.855918	0.000000	1.273240
1724.00	160.25	105.392285	0.000000	1.520517	39.674402	0.163760	0.793568	0.848946	0.000000	1.273240
1728.00	156.75	103.050866	0.000000	1.521139	39.664608	0.171467	0.784979	0.842428	0.000000	1.273240
1732.00	153.40	100.805290	0.000000	1.521757	39.654890	0.178779	0.776917	0.836291	0.000000	1.273240
1736.00	150.17	98.643179	0.000000	1.522371	39.645245	0.185754	0.769303	0.830478	0.000000	1.273240
1740.00	147.05	96.554827	0.000000	1.522980	39.635670	0.192436	0.762079	0.824947	0.000000	1.273240
1744.00	144.03	94.532441	0.000000	1.523585	39.626163	0.198861	0.755197	0.819664	0.000000	1.273240
1748.00	141.09	92.569637	0.000000	1.524187	39.616720	0.205058	0.748618	0.814600	0.000000	1.273240
1752.00	122.48	80.307277	0.000000	1.525090	39.602553	0.298473	0.656114	0.741950	0.000000	1.273240
1756.00	101.58	66.558619	0.000000	1.526109	39.586580	0.425805	0.548151	0.653244	0.000000	1.273240
1760.00	87.70	57.431146	0.000000	1.527025	39.572223	0.524618	0.476770	0.591781	0.000000	1.273240
1764.00	77.29	50.585841	0.000000	1.527888	39.558716	0.608840	0.423316	0.543982	0.000000	1.273240
1768.00	69.01	45.145676	0.000000	1.528715	39.545772	0.683734	0.380838	0.504729	0.000000	1.273240
1772.00	62.20	40.668840	0.000000	1.529517	39.533243	0.751982	0.345853	0.471431	0.000000	1.273240
1776.00	56.46	36.896778	0.000000	1.530298	39.521041	0.815175	0.316332	0.442562	0.000000	1.273240
1780.00	51.54	33.663458	0.000000	1.531062	39.509109	0.874349	0.290976	0.417133	0.000000	1.273240
1784.00	47.26	30.855244	0.000000	1.531812	39.497407	0.930226	0.268902	0.394464	0.000000	1.273240
1788.00	43.51	28.390658	0.000000	1.532549	39.485906	0.983333	0.249476	0.374062	0.000000	1.273240
1792.00	40.19	26.209154	0.000000	1.533276	39.474584	1.034069	0.232230	0.355557	0.000000	1.273240
1796.00	37.22	24.264462	0.000000	1.533992	39.463423	1.082742	0.216807	0.338665	0.000000	1.273240
1800.00	34.56	22.520400	0.000000	1.534699	39.452408	1.129602	0.202927	0.323162	0.000000	1.273240
1804.00	14.30	9.299734	0.000000	1.537414	39.410197	1.747724	0.084784	0.174170	0.000000	1.273240
1808.00	7.28	4.726328	0.000000	1.539613	39.376075	2.218984	0.043585	0.108720	0.000000	1.273240
1812.00	4.10	2.659780	0.000000	1.541557	39.345954	2.618095	0.024809	0.072942	0.000000	1.273240
1816.00	2.46	1.595847	0.000000	1.543341	39.318364	2.971834	0.015056	0.051209	0.000000	1.273240
1820.00	1.55	1.001771	0.000000	1.545010	39.292577	3.293534	0.009560	0.037122	0.000000	1.273240
1824.00	1.01	0.650700	0.000000	1.546592	39.268164	3.591007	0.006281	0.027571	0.000000	1.273240
1828.00	0.67	0.434235	0.000000	1.548105	39.244848	3.869300	0.004240	0.020873	0.000000	1.273240
1832.00	0.46	0.296249	0.000000	1.549561	39.222437	4.131904	0.002927	0.016052	0.000000	1.273240
1836.00	0.32	0.205882	0.000000	1.550969	39.200792	4.381357	0.002058	0.012508	0.000000	1.273240
1840.00	0.23	0.145356	0.000000	1.552335	39.179808	4.619568	0.001470	0.009857	0.000000	1.273240
1844.00	0.16	0.104037	0.000000	1.553665	39.159403	4.848024	0.001065	0.007844	0.000000	1.273240
1848.00	0.12	0.075363	0.000000	1.554963	39.139512	5.067905	0.000781	0.006296	0.000000	1.273240
1852.00	0.11	0.067984	0.000000	1.555711	39.128051	5.134082	0.000711	0.005892	0.000000	1.273240
1856.00	0.12	0.075845	0.000000	1.555927	39.124746	5.051515	0.000799	0.006400	0.000000	1.273240
1860.00	0.13	0.084752	0.000000	1.556136	39.121548	4.967765	0.000899	0.006959	0.000000	1.273240
1864.00	0.15	0.094865	0.000000	1.556338	39.118458	4.882784	0.001014	0.007576	0.000000	1.273240
1868.00	0.17	0.106373	0.000000	1.556533	39.115479	4.796519	0.001145	0.008258	0.000000	1.273240
1872.00	0.19	0.119497	0.000000	1.556720	39.112614	4.708911	0.001296	0.009015	0.000000	1.273240
1876.00	0.21	0.134501	0.000000	1.556900	39.109866	4.619897	0.001469	0.009854	0.000000	1.273240
1880.00	0.24	0.151698	0.000000	1.557071	39.107238	4.529406	0.001670	0.010787	0.000000	1.273240
1884.00	0.27	0.171461	0.000000	1.557235	39.104735	4.437360	0.001901	0.011827	0.000000	1.273240
1888.00	0.30	0.194238	0.000000	1.557390	39.102362	4.343675	0.002170	0.012989	0.000000	1.273240
1892.00	0.34	0.220570	0.000000	1.557537	39.100121	4.248256	0.002483	0.014289	0.000000	1.273240
1896.00	0.39	0.251108	0.000000	1.557674	39.098020	4.150999	0.002849	0.015749	0.000000	1.273240
1900.00	0.45	0.286650	0.000000	1.557802	39.096064	4.051789	0.003277	0.017391	0.000000	1.273240
1904.00	0.52	0.331077	0.000000	1.557903	39.094531	3.945509	0.003808	0.019341	0.000000	1.273240
1908.00	0.62	0.399032	0.000000	1.557893	39.094681	3.809082	0.004616	0.022169	0.000000	1.273240
1912.00	0.76	0.489192	0.000000	1.557837	39.095526	3.660593	0.005693	0.025717	0.000000	1.273240
1916.00	0.95	0.608377	0.000000	1.557743	39.096962	3.501952	0.007123	0.030139	0.000000	1.273240
1920.00	1.20	0.767456	0.000000	1.557611	39.098986	3.333210	0.009039	0.035678	0.000000	1.273240
1924.00	1.53	0.983077	0.000000	1.557438	39.101639	3.153611	0.011648	0.042698	0.000000	1.273240
1928.00	2.00	1.281244	0.000000	1.557218	39.104997	2.961759	0.015271	0.051728	0.000000	1.273240
1932.00	2.65	1.704114	0.000000	1.556945	39.109175	2.755517	0.020434	0.063576	0.000000	1.273240
1936.00	3.62	2.323544	0.000000	1.556606	39.114350	2.531688	0.028028	0.079525	0.000000	1.273240
1940.00	5.09	3.270590	0.000000	1.556186	39.120789	2.285327	0.039688	0.101741	0.000000	1.273240
1944.00	7.48	4.808225	0.000000	1.555653	39.128943	2.008194	0.058694	0.134231	0.000000	1.273240
1948.00	11.74	7.547797	0.000000	1.554953	39.139664	1.684668	0.092678	0.185506	0.000000	1.273240
1952.00	15.76	10.139820	0.000000	1.554645	39.144384	1.471787	0.125174	0.229515	0.000000	1.273240
1956.00	16.82	10.817181	0.000000	1.554917	39.140215	1.422474	0.134200	0.241117	0.000000	1.273240
1960.00	18.00	11.577392	0.000000	1.555179	39.136207	1.370846	0.144348	0.253892	0.000000	1.273240
1964.00	19.34	12.437017	0.000000	1.555429	39.132377	1.316584	0.155842	0.268049	0.000000	1.273240
1968.00	20.87	13.417795	0.000000	1.555666	39.128748	1.259278	0.168975	0.283859	0.000000	1.273240
1972.00	22.64	14.549045	0.000000	1.555888	39.125347	1.198393	0.184144	0.301678	0.000000	1.273240
1976.00	24.70	15.871652	0.000000	1.556092	39.122215	1.133204	0.201897	0.322000	0.000000	1.273240
1980.00	27.15	17.445167	0.000000	1.556276	39.119407	1.062682	0.223035	0.345528	0.000000	1.273240
1984.00	30.13	19.361510	0.000000	1.556433	39.117007	0.985287	0.248789	0.373332	0.000000	1.273240
1988.00	33.89	21.774766	0.000000	1.556554	39.115152	0.898513	0.281216	0.407175	0.000000	1.273240
1992.00	38.88	24.978314	0.000000	1.556623	39.114093	0.797728	0.324221	0.450351	0.000000	1.273240
1996.00	46.19	29.674890	0.000000	1.556602	39.114419	0.672151	0.387118	0.510609	0.000000	1.273240
2000.00	60.79	39.058546	0.000000	1.556320	39.118730	0.474102	0.512018	0.622444	0.000000	1.273240
